<?xml version="1.0" encoding="UTF-8"?>

<Bundle xmlns="http://hl7.org/fhir">
  <id value="HdBe-LaboratoryTestResult-Bundle-05-antibiogramIsNegative"/>
  <identifier>
    <system value="urn:ietf:rfc:3986"/>
    <value value="urn:uuid:0c3201bd-1cba-4d64-b04d-cd9187a4c6e0"/>
  </identifier>
  <type value="collection"/>
  <entry>
    <fullUrl value="https://acme.org/Specimen/specimen60"/>
    <resource>
      <Specimen>
        <id value="specimen60"/>
        <meta>
          <versionId value="1"/>
          <profile value="https://fhir.healthdata.be/StructureDefinition/HdBe-LaboratoryTestResult.Specimen"/>
        </meta>
        <text>
          <status value="empty"/><div xmlns="http://www.w3.org/1999/xhtml">empty</div>
        </text>
        <identifier>
          <system value="https://www.GTL-LABO.be/"/>
          <value value="1"/>
        </identifier>
        <status value="available"/>
        <type>
          <coding>
            <system value="http://snomed.info/sct"/>
            <code value="119295008"/>
            <display value="Aspirate"/>
          </coding>
          <text value="A string can be added to nuance or explain."/>
        </type>
        <receivedTime value="2015-11-04"/>
        <note>
          <text value="Some extra relevant information concerning the specimen"/>
        </note>
      </Specimen>
    </resource>
  </entry>
  <entry>
    <fullUrl value="https://acme.org/Observation/mac60"/>
    <resource>
      <Observation>
        <id value="mac60"/>
        <meta>
          <profile value="https://fhir.healthdata.be/StructureDefinition/HdBe-LaboratoryTestResult"/>
        </meta>
        <text>
          <status value="empty"/><div xmlns="http://www.w3.org/1999/xhtml">empty</div>
        </text>
        <status value="final"/>
        <code>
          <coding>
            <system value="http://loinc.org"/>
            <code value="74574-5"/>
            <display value="Macroscopic observation [Interpretation] in Specimen Narrative"/>
          </coding>
          <text value="Macroscopic observation"/>
        </code>
        <subject>
          <reference value="Patient/patient1"/>
        </subject>
        <effectiveDateTime value="2015-11-04T09:16:00-05:00"/>
        <issued value="2015-11-04T09:16:00-05:00"/>
        <performer>
          <reference value="Practitioner/practitioner11"/>
        </performer>
        <valueString value="matig purulent"/>
      </Observation>
    </resource>
  </entry>
  <entry>
    <fullUrl value="https://acme.org/Observation/cult60"/>
    <resource>
      <Observation>
        <id value="cult60"/>
        <meta>
          <profile value="https://fhir.healthdata.be/StructureDefinition/HdBe-LaboratoryTestResult"/>
        </meta>
        <text>
          <status value="empty"/><div xmlns="http://www.w3.org/1999/xhtml">empty</div>
        </text>
        <status value="final"/>
        <code>
          <coding>
            <system value="http://loinc.org"/>
            <code value="43411-8"/>
            <display value="Bacteria identified in Aspirate by Culture"/>
          </coding>
          <text value="Culture"/>
        </code>
        <subject>
          <reference value="Patient/patient1"/>
        </subject>
        <effectiveDateTime value="2015-11-04T09:16:00-05:00"/>
        <issued value="2015-11-04T09:16:00-05:00"/>
        <performer>
          <reference value="Practitioner/practitioner11"/>
        </performer>
        <valueString value="Commensalen +-"/>
      </Observation>
    </resource>
  </entry>
  <entry>
    <fullUrl value="https://acme.org/Organization/organization10"/>
    <resource>
      <Organization>
        <id value="organization10"/>
        <meta>
          <profile value="https://fhir.healthdata.be/StructureDefinition/HdBe-HealthcareOrganization-Organization"/>
        </meta>
        <text>
          <status value="empty"/><div xmlns="http://www.w3.org/1999/xhtml">empty</div>
        </text>
        <identifier>
          <use value="official"/>
          <type>
            <coding>
              <system value="http://terminology.hl7.org/CodeSystem/v2-0203"/>
              <code value="MD"/>
              <display value="Medical License number"/>
            </coding>
          </type>
          <system value="https://www.ehealth.fgov.be/standards/fhir/core/NamingSystem/nihdi"/>
          <value value="81165343998"/>
        </identifier>
        <active value="true"/>
        <type>
          <coding>
            <system value="https://www.ehealth.fgov.be/standards/fhir/core/CodeSystem/cd-hcparty"/>
            <code value="orglaboratory"/>
          </coding>
        </type>
        <name value="GTL - General Testing Laboratory"/>
        <telecom>
          <system value="phone"/>
          <value value="322675199"/>
          <use value="work"/>
        </telecom>
        <address>
          <extension url="http://hl7.org/fhir/StructureDefinition/language">
            <valueCode value="nl"/>
          </extension>
          <use value="work"/>
          <type value="both"/>
          <text value="Vulcansstraat 120, 1000 Brussel"/>
          <line value="Vulcansstraat 120">
            <extension url="http://hl7.org/fhir/StructureDefinition/iso21090-ADXP-streetName">
              <valueString value="Vulcansstraat"/>
            </extension>
            <extension url="http://hl7.org/fhir/StructureDefinition/iso21090-ADXP-houseNumber">
              <valueString value="120"/>
            </extension>
          </line>
          <city value="Brussel"/>
          <postalCode value="1000"/>
          <country value="BE"/>
        </address>
      </Organization>
    </resource>
  </entry>
  <entry>
    <fullUrl value="https://acme.org/Practitioner/practitioner11"/>
    <resource>
      <Practitioner>
        <id value="practitioner11"/>
        <meta>
          <profile value="https://fhir.healthdata.be/StructureDefinition/HdBe-HealthProfessional-Practitioner"/>
        </meta>
        <text>
          <status value="empty"/><div xmlns="http://www.w3.org/1999/xhtml">empty</div>
        </text>
        <identifier>
          <use value="official"/>
          <system value="https://www.ehealth.fgov.be/standards/fhir/core/NamingSystem/nihdi"/>
          <value value="554488997"/>
        </identifier>
        <name>
          <use value="official"/>
          <family value="Davoust"/>
          <given value="Nicolas">
            <extension url="http://hl7.org/fhir/StructureDefinition/iso21090-EN-qualifier">
              <valueCode value="BR"/>
            </extension>
          </given>
        </name>
        <telecom>
          <system value="email"/>
          <value value="nicolas.davoust@gtl.be"/>
          <use value="work"/>
        </telecom>
        <telecom>
          <system value="phone"/>
          <value value="022675198"/>
          <use value="work"/>
        </telecom>
        <telecom>
          <system value="fax"/>
          <value value="022675209"/>
          <use value="work"/>
        </telecom>
      </Practitioner>
    </resource>
  </entry>
  <entry>
    <fullUrl value="https://acme.org/Patient/patient1"/>
    <resource>
      <Patient>
        <id value="patient1"/>
        <meta>
          <profile value="https://fhir.healthdata.be/StructureDefinition/HdBe-Patient"/>
        </meta>
        <text>
          <status value="empty"/><div xmlns="http://www.w3.org/1999/xhtml">empty</div>
        </text>
        <identifier>
          <use value="official"/>
          <system value="https://www.ehealth.fgov.be/standards/fhir/core/NamingSystem/ssin"/>
          <value value="79121137740"/>
        </identifier>
        <active value="true"/>
        <name>
          <family value="La Paradisio"/>
          <given value="Josephine"/>
          <given value="Nessa"/>
        </name>
        <telecom>
          <system value="email"/>
          <value value="nessa.laparadisio@belgium.be"/>
        </telecom>
        <telecom>
          <system value="phone"/>
          <value value="+322476792979"/>
          <use value="mobile"/>
        </telecom>
        <telecom>
          <system value="phone"/>
          <value value="+3226718655"/>
          <use value="home"/>
        </telecom>
        <telecom>
          <system value="phone"/>
          <value value="+322476799"/>
          <use value="work"/>
        </telecom>
        <gender value="female"/>
        <birthDate value="1979-12-11">
          <extension url="http://hl7.org/fhir/StructureDefinition/patient-birthTime">
            <valueDateTime value="1979-12-11T13:28:17-05:00"/>
          </extension>
        </birthDate>
        <address>
          <extension url="http://hl7.org/fhir/StructureDefinition/language">
            <valueCode value="nl"/>
          </extension>
          <use value="home"/>
          <type value="both"/>
          <text value="Sloordelle 42, 1160 Oudergem"/>
          <line value="Sloordelle 42"/>
          <city value="Oudergem"/>
          <postalCode value="1160"/>
          <country value="BE"/>
        </address>
      </Patient>
    </resource>
  </entry>
  <entry>
    <fullUrl value="https://acme.org/ServiceRequest/servicerequest60"/>
    <resource>
      <ServiceRequest>
        <id value="servicerequest60"/>
        <meta>
          <profile value="https://fhir.healthdata.be/StructureDefinition/HdBe-LaboratoryTestResult.Requester"/>
        </meta>
        <text>
          <status value="empty"/><div xmlns="http://www.w3.org/1999/xhtml">empty</div>
        </text>
        <identifier>
          <system value="https://www.GTL-LABO.be/orderingsystem"/>
          <value value="12334546"/>
        </identifier>
        <status value="active"/>
        <intent value="order"/>
        <category>
          <coding>
            <system value="http://snomed.info/sct"/>
            <code value="108252007"/>
            <display value="Laboratory procedure"/>
          </coding>
        </category>
        <subject>
          <reference value="Patient/patient1"/>
        </subject>
        <authoredOn value="2015-11-01T14:41:00+01:00"/>
        <requester>
          <reference value="Practitioner/practitioner1"/>
        </requester>
        <specimen>
          <reference value="Specimen/specimen60"/>
        </specimen>
      </ServiceRequest>
    </resource>
  </entry>
  <entry>
    <fullUrl value="https://acme.org/Practitioner/practitioner1"/>
    <resource>
      <Practitioner>
        <id value="practitioner1"/>
        <meta>
          <profile value="https://fhir.healthdata.be/StructureDefinition/HdBe-HealthProfessional-Practitioner"/>
        </meta>
        <text>
          <status value="empty"/><div xmlns="http://www.w3.org/1999/xhtml">empty</div>
        </text>
        <identifier>
          <use value="official"/>
          <system value="https://www.ehealth.fgov.be/standards/fhir/core/NamingSystem/nihdi"/>
          <value value="18749704477"/>
        </identifier>
        <name>
          <use value="official"/>
          <family value="Pulaski"/>
          <given value="Katherine">
            <extension url="http://hl7.org/fhir/StructureDefinition/iso21090-EN-qualifier">
              <valueCode value="BR"/>
            </extension>
          </given>
          <suffix value="MD"/>
        </name>
        <telecom>
          <system value="email"/>
          <value value="katherine.pulaski@enterprisehospital.be"/>
          <use value="work"/>
        </telecom>
        <telecom>
          <system value="phone"/>
          <value value="022675198"/>
          <use value="work"/>
        </telecom>
        <telecom>
          <system value="fax"/>
          <value value="022675209"/>
          <use value="work"/>
        </telecom>
        <address>
          <extension url="http://hl7.org/fhir/StructureDefinition/language">
            <valueCode value="nl"/>
          </extension>
          <use value="home"/>
          <text value="Jupiterlaan 5, 1853 Grimbergen"/>
          <line value="Jupiterlaan 5"/>
          <city value="Grimbergen"/>
          <postalCode value="1853"/>
          <country value="BE"/>
        </address>
      </Practitioner>
    </resource>
  </entry>
</Bundle>